Folder: FAIRSynthesis/analysis/data/Sample2/Reference-PXRD

Note: analysis/README.md
# synthesis-optimizer

## Running

1. Install [uv](https://github.com/astral-sh/uv)
2. open cmd / terminal, go to `analysis` folder and type `uv run marimo run pxdr-analysis.py`
3. to edit run `uv run marimo edit pxdr-analysis.py`

File: PXRD_KE-207_Co-Kα1_capillary-1mm_COF-366-Co.xyd
    1.500    4.0342
    1.635    3.7239
    1.770    3.1247
    1.905    2.8357
    2.040    2.5896
    2.175    2.6110
    2.310    2.3435
    2.445    2.1295
    2.580    2.1509
    2.715    2.1295
    2.850    2.1616
    2.985    2.4505
    3.120    2.8143
    3.255    2.9856
    3.390    3.6490
    3.525    4.8689
    3.660    6.1209
    3.795    8.7426
    3.930   13.4831
    4.065   14.4355
    4.200    8.1006
    4.335    6.0139
    4.470    5.8427
    4.605    6.2493
    4.740    5.6501
    4.875    4.7191
    5.010    3.5099
    5.145    2.7180
    5.280    1.5409
    5.415    1.5730
    5.550    1.2520
    5.685    1.3162
    5.820    1.0487
    5.955    0.8454
    6.090    0.9631
    6.225    1.0701
    6.360    0.9845
    6.495    0.8454
    6.630    0.8454
    6.765    0.7170
    6.900    0.7705
    7.035    0.7812
    7.170    0.8347
    7.305    0.8133
    7.440    0.9631
    7.575    0.8347
    7.710    1.1022
    7.845    1.3376
    7.980    1.7335
    8.115    1.7442
    8.250    1.2948
    8.385    1.0380
    8.520    0.9310
    8.655    0.9203
    8.790    0.8882
    8.925    0.9096
    9.060    0.9738
    9.195    1.1664
    9.330    1.0701
    9.465    1.0059
    9.600    1.1129
    9.735    1.0487
    9.870    1.0380
   10.005    0.9203
   10.140    0.8561
   10.275    0.7919
   10.410    0.6742
   10.545    0.7812
   10.680    0.7384
   10.815    0.6100
   10.950    0.6421
   11.085    0.7277
   11.220    0.8133
   11.355    0.5136
   11.490    0.6207
   11.625    0.6314
   11.760    0.6956
   11.895    0.6956
   12.030    0.7063
   12.165    0.7705
   12.300    0.5671
   12.435    0.7598
   12.570    0.7491
   12.705    0.5993
   12.840    0.6528
   12.975    0.7598
   13.110    0.7705
   13.245    0.6207
   13.380    0.6421
   13.515    0.7170
   13.650    0.7277
   13.785    0.5993
   13.920    0.6207
   14.055    0.7812
   14.190    0.6849
   14.325    0.5778
   14.460    0.6635
   14.595    0.5243
   14.730    0.7384
   14.865    0.7812
   15.000    0.5993
   15.135    0.8347
   15.270    0.6956
   15.405    0.7277
   15.540    0.6207
   15.675    0.6528
   15.810    0.8133
   15.945    0.6207
   16.080    0.6528
   16.215    0.5778
   16.350    0.5993
   16.485    0.6635
   16.620    0.5886
   16.755    0.6849
   16.890    0.5350
   17.025    0.5993
   17.160    0.5778
   17.295    0.5457
   17.430    0.5029
   17.565    0.5564
   17.700    0.6742
   17.835    0.6849
   17.970    0.5778
   18.105    0.6849
   18.240    0.6100
   18.375    0.5993
   18.510    0.6635
   18.645    0.6849
   18.780    0.6635
   18.915    0.6100
   19.050    0.6635
   19.185    0.7170
   19.320    0.6421
   19.455    0.5243
   19.590    0.5886
   19.725    0.5243
   19.860    0.5243
   19.995    0.6849
   20.130    0.7277
   20.265    0.4066
   20.400    0.6207
   20.535    0.6528
   20.670    0.5778
   20.805    0.6528
   20.940    0.6956
   21.075    0.5564
   21.210    0.6635
   21.345    0.7598
   21.480    0.6421
   21.615    0.6528
   21.750    0.6742
   21.885    0.6635
   22.020    0.7277
   22.155    0.5350
   22.290    0.5671
   22.425    0.6207
   22.560    0.6100
   22.695    0.6849
   22.830    0.6742
   22.965    0.7170
   23.100    0.7277
   23.235    0.6314
   23.370    0.7384
   23.505    0.7170
   23.640    0.5136
   23.775    0.8561
   23.910    0.6314
   24.045    0.6742
   24.180    0.7384
   24.315    0.7919
   24.450    0.7170
   24.585    0.6742
   24.720    0.5993
   24.855    0.7705
   24.990    0.7170
   25.125    0.7812
   25.260    0.7598
   25.395    0.6849
   25.530    0.8133
   25.665    0.7705
   25.800    0.7277
   25.935    0.6849
   26.070    0.6100
   26.205    0.6956
   26.340    0.7705
   26.475    0.6314
   26.610    0.5671
   26.745    0.5457
   26.880    0.5243
   27.015    0.4601
   27.150    0.6528
   27.285    0.5886
   27.420    0.7598
   27.555    0.5778
   27.690    0.7384
   27.825    0.5136
   27.960    0.6635
   28.095    0.7598
   28.230    0.5886
   28.365    0.7277
   28.500    0.5671
   28.635    0.6528
   28.770    0.6635
   28.905    0.6742
   29.040    0.5457
   29.175    0.5671
   29.310    0.5564
   29.445    0.6207
   29.580    0.7170
   29.715    0.4494
   29.850    0.5136
   29.985    0.6528
   30.120    0.6207
   30.255    0.5778
   30.390    0.6849
   30.525    0.5671
   30.660    0.6421
   30.795    0.6100
   30.930    0.4922
   31.065    0.5671
   31.200    0.5457
   31.335    0.5886
   31.470    0.5243
   31.605    0.4280
   31.740    0.4494
   31.875    0.5671
   32.010    0.6314
   32.145    0.5136
   32.280    0.4494
   32.415    0.4280
   32.550    0.4815
   32.685    0.5778
   32.820    0.6421
   32.955    0.6314
   33.090    0.4387
   33.225    0.5136
   33.360    0.4066
   33.495    0.5350
   33.630    0.4173
   33.765    0.5564
   33.900    0.5243
   34.035    0.5671
   34.170    0.4066
   34.305    0.5029
   34.440    0.4708
   34.575    0.4708
   34.710    0.4815
   34.845    0.3852
   34.980    0.4922
   35.115    0.3745
   35.250    0.4708
   35.385    0.4387
   35.520    0.3852
   35.655    0.6100
   35.790    0.3852
   35.925    0.4387
   36.060    0.4815
   36.195    0.4387
   36.330    0.3424
   36.465    0.4708
   36.600    0.4173
   36.735    0.3959
   36.870    0.5136
   37.005    0.5243
   37.140    0.5136
   37.275    0.4066
   37.410    0.4173
   37.545    0.4708
   37.680    0.3852
   37.815    0.3317
   37.950    0.4387
   38.085    0.3959
   38.220    0.3424
   38.355    0.3745
   38.490    0.3210
   38.625    0.4387
   38.760    0.3638
   38.895    0.3852
   39.030    0.2782
   39.165    0.3959
   39.300    0.4066
   39.435    0.4280
   39.570    0.3317
   39.705    0.3210
   39.840    0.3638
   39.975    0.2996
   39.990    0.4066